{
    "resourceType": "Bundle",
    "id": "Prescription-example-06",
    "meta": {
        "versionId": "1",
        "lastUpdated": "2020-07-09T15:32:26.605+05:30",
        "profile": [
            "https://nrces.in/ndhm/fhir/r4/StructureDefinition/DocumentBundle"
        ],
        "security": [
            {
                "system": "http://terminology.hl7.org/CodeSystem/v3-Confidentiality",
                "code": "V",
                "display": "very restricted"
            }
        ]
    },
    "identifier": {
        "system": "http://hip.in",
        "value": "bc3c6c57-2053-4d0e-ac40-139ccccff645"
    },
    "type": "document",
    "timestamp": "2020-07-09T15:32:26.605+05:30",
    "entry": [
        {
            "fullUrl": "Composition/1",
            "resource": {
                "resourceType": "Composition",
                "id": "1",
                "meta": {
                    "versionId": "1",
                    "lastUpdated": "2020-07-09T15:32:26.605+05:30",
                    "profile": [
                        "https://nrces.in/ndhm/fhir/r4/StructureDefinition/PrescriptionRecord"
                    ]
                },
                "language": "en-IN",
                "text": {
                    "status": "generated",
                    "div": "<div xmlns=\"http://www.w3.org/1999/xhtml\" xml:lang=\"en-IN\" lang=\"en-IN\"><h4>Narrative with Details</h4>\r\n      <p><b>id:</b> 1</p>\r\n\t  <p><b>status:</b> active</p>\r\n\t  <p><b>type:</b> Prescription record (Details : {http://snomed.info/sct} code '440545006' = 'Prescription record')</p>\r\n      <p><b>subject:</b> ABC. Generated Summary: id: 1; Medical Record Number = 1234 (System : {https://ndhm.in/SwasthID}); active; ABC ; ph: +919818512600(HOME); gender: male; birthDate: 1981-01-12</p>\r\n      <p><b>date:</b> 2017-05-27T11:46:09+05:30</p>\r\n\t  <p><b>author:</b> Dr. DEF. Generated Summary: id: 1; Medical License number = 7601003178999 (System : {https://ndhm.in/DigiDoc})</p>\r\n      <h3>Medication prescribed for ABC issued 9-July 2020</h3>\r\n      <pre>Medicine                                                                   Directions           Instruction\r\nAzithromycin (as azithromycin dihydrate) 250 mg oral capsule           1 capsule per day       With or after food      </pre>\r\n<p>Inc signed: Dr. DEF, MD (Medicine)</p></div>"
                },
                "identifier": {
                    "system": "https://ndhm.in/phr",
                    "value": "645bb0c3-ff7e-4123-bef5-3852a4784813"
                },
                "status": "final",
                "type": {
                    "coding": [
                        {
                            "system": "http://snomed.info/sct",
                            "code": "440545006",
                            "display": "Prescription record"
                        }
                    ],
                    "text": "Prescription record"
                },
                "subject": {
                    "reference": "Patient/1"
                },
                "date": "2017-05-27T11:46:09+05:30",
                "author": [
                    {
                        "reference": "Practitioner/1"
                    }
                ],
                "title": "Prescription record",
                "section": [
                    {
                        "title": "Prescription record",
                        "code": {
                            "coding": [
                                {
                                    "system": "http://snomed.info/sct",
                                    "code": "440545006",
                                    "display": "Prescription record"
                                }
                            ]
                        },
                        "entry": [
                            {
                                "reference": "MedicationRequest/1",
                                "type": "MedicationRequest"
                            },
                            {
                                "reference": "MedicationRequest/2",
                                "type": "MedicationRequest"
                            },
                            {
                                "reference": "Binary/1",
                                "type": "Binary"
                            }
                        ]
                    }
                ]
            }
        },
        {
            "fullUrl": "Patient/1",
            "resource": {
                "resourceType": "Patient",
                "id": "1",
                "meta": {
                    "versionId": "1",
                    "lastUpdated": "2020-07-09T14:58:58.181+05:30",
                    "profile": [
                        "https://nrces.in/ndhm/fhir/r4/StructureDefinition/Patient"
                    ]
                },
                "text": {
                    "status": "generated",
                    "div": "<div xmlns=\"http://www.w3.org/1999/xhtml\" xml:lang=\"en-IN\" lang=\"en-IN\">ABC, 41 year, Male</div>"
                },
                "identifier": [
                    {
                        "type": {
                            "coding": [
                                {
                                    "system": "http://terminology.hl7.org/CodeSystem/v2-0203",
                                    "code": "MR",
                                    "display": "Medical record number"
                                }
                            ]
                        },
                        "system": "https://healthid.ndhm.gov.in",
                        "value": "22-7225-4829-5255"
                    }
                ],
                "name": [
                    {
                        "text": "ABC"
                    }
                ],
                "telecom": [
                    {
                        "system": "phone",
                        "value": "+919818512600",
                        "use": "home"
                    }
                ],
                "gender": "male",
                "birthDate": "1981-01-12"
            }
        },
        {
            "fullUrl": "Practitioner/1",
            "resource": {
                "resourceType": "Practitioner",
                "id": "1",
                "meta": {
                    "versionId": "1",
                    "lastUpdated": "2019-05-29T14:58:58.181+05:30",
                    "profile": [
                        "https://nrces.in/ndhm/fhir/r4/StructureDefinition/Practitioner"
                    ]
                },
                "text": {
                    "status": "generated",
                    "div": "<div xmlns=\"http://www.w3.org/1999/xhtml\" xml:lang=\"en-IN\" lang=\"en-IN\">Dr. DEF, MD (Medicine)</div>"
                },
                "identifier": [
                    {
                        "type": {
                            "coding": [
                                {
                                    "system": "http://terminology.hl7.org/CodeSystem/v2-0203",
                                    "code": "MD",
                                    "display": "Medical License number"
                                }
                            ]
                        },
                        "system": "https://doctor.ndhm.gov.in",
                        "value": "21-1521-3828-3227"
                    }
                ],
                "name": [
                    {
                        "text": "Dr. DEF"
                    }
                ]
            }
        },
        {
            "fullUrl": "MedicationRequest/1",
            "resource": {
                "resourceType": "MedicationRequest",
                "id": "1",
                "meta": {
                    "profile": [
                        "https://nrces.in/ndhm/fhir/r4/StructureDefinition/MedicationRequest"
                    ]
                },
                "text": {
                    "status": "generated",
                    "div": "<div xmlns=\"http://www.w3.org/1999/xhtml\"><p><b>Generated Narrative: MedicationRequest</b><a name=\"1\"> </a></p><div style=\"display: inline-block; background-color: #d9e0e7; padding: 6px; margin: 4px; border: 1px solid #8da1b4; border-radius: 5px; line-height: 60%\"><p style=\"margin-bottom: 0px\">Resource MedicationRequest \"1\" </p><p style=\"margin-bottom: 0px\">Profile: <a href=\"StructureDefinition-MedicationRequest.html\">MedicationRequest</a></p></div><p><b>status</b>: active</p><p><b>intent</b>: order</p><p><b>medication</b>: Azithromycin (as azithromycin dihydrate) 250 mg oral capsule <span style=\"background: LightGoldenRodYellow; margin: 4px; border: 1px solid khaki\"> (<a href=\"https://browser.ihtsdotools.org/\">SNOMED CT</a>#324252006)</span></p><p><b>subject</b>: <a href=\"#Patient_1\">See above (Patient/1: ABC)</a></p><p><b>authoredOn</b>: 2020-07-09</p><p><b>requester</b>: <a href=\"#Practitioner_1\">See above (Practitioner/1: Dr. DEF)</a></p><p><b>reasonCode</b>: Traveler's diarrhea <span style=\"background: LightGoldenRodYellow; margin: 4px; border: 1px solid khaki\"> (<a href=\"https://browser.ihtsdotools.org/\">SNOMED CT</a>#11840006)</span></p><p><b>reasonReference</b>: <a href=\"#Condition_1\">See above (Condition/1)</a></p><h3>DosageInstructions</h3><table class=\"grid\"><tr><td>-</td><td><b>Text</b></td><td><b>AdditionalInstruction</b></td><td><b>Timing</b></td><td><b>Route</b></td><td><b>Method</b></td></tr><tr><td>*</td><td>One tablet at once</td><td>With or after food <span style=\"background: LightGoldenRodYellow; margin: 4px; border: 1px solid khaki\"> (<a href=\"https://browser.ihtsdotools.org/\">SNOMED CT</a>#311504000)</span></td><td>Do Once per 1 days</td><td>Oral Route <span style=\"background: LightGoldenRodYellow; margin: 4px; border: 1px solid khaki\"> (<a href=\"https://browser.ihtsdotools.org/\">SNOMED CT</a>#26643006)</span></td><td>Swallow <span style=\"background: LightGoldenRodYellow; margin: 4px; border: 1px solid khaki\"> (<a href=\"https://browser.ihtsdotools.org/\">SNOMED CT</a>#421521009)</span></td></tr></table></div>"
                },
                "status": "active",
                "intent": "order",
                "medicationCodeableConcept": {
                    "coding": [
                        {
                            "system": "http://snomed.info/sct",
                            "code": "324252006",
                            "display": "Azithromycin (as azithromycin dihydrate) 250 mg oral capsule"
                        }
                    ]
                },
                "subject": {
                    "reference": "Patient/1",
                    "display": "ABC"
                },
                "authoredOn": "2020-07-09",
                "requester": {
                    "reference": "Practitioner/1",
                    "display": "Dr. DEF"
                },
                "reasonCode": [
                    {
                        "coding": [
                            {
                                "system": "http://snomed.info/sct",
                                "code": "11840006",
                                "display": "Traveler's diarrhea"
                            }
                        ]
                    }
                ],
                "reasonReference": [
                    {
                        "reference": "Condition/1"
                    }
                ],
                "dosageInstruction": [
                    {
                        "text": "One tablet at once",
                        "additionalInstruction": [
                            {
                                "coding": [
                                    {
                                        "system": "http://snomed.info/sct",
                                        "code": "311504000",
                                        "display": "With or after food"
                                    }
                                ]
                            }
                        ],
                        "timing": {
                            "repeat": {
                                "frequency": 1,
                                "period": 1,
                                "periodUnit": "d"
                            }
                        },
                        "route": {
                            "coding": [
                                {
                                    "system": "http://snomed.info/sct",
                                    "code": "26643006",
                                    "display": "Oral Route"
                                }
                            ]
                        },
                        "method": {
                            "coding": [
                                {
                                    "system": "http://snomed.info/sct",
                                    "code": "421521009",
                                    "display": "Swallow"
                                }
                            ]
                        }
                    }
                ]
            }
        },
        {
            "fullUrl": "MedicationRequest/2",
            "resource": {
                "resourceType": "MedicationRequest",
                "id": "2",
                "meta": {
                    "profile": [
                        "https://nrces.in/ndhm/fhir/r4/StructureDefinition/MedicationRequest"
                    ]
                },
                "text": {
                    "status": "generated",
                    "div": "<div xmlns=\"http://www.w3.org/1999/xhtml\"><p><b>Generated Narrative: MedicationRequest</b><a name=\"2\"> </a></p><div style=\"display: inline-block; background-color: #d9e0e7; padding: 6px; margin: 4px; border: 1px solid #8da1b4; border-radius: 5px; line-height: 60%\"><p style=\"margin-bottom: 0px\">Resource MedicationRequest \"2\" </p><p style=\"margin-bottom: 0px\">Profile: <a href=\"StructureDefinition-MedicationRequest.html\">MedicationRequest</a></p></div><p><b>status</b>: active</p><p><b>intent</b>: order</p><p><b>medication</b>: Paracetemol 500mg Oral Tab <span style=\"background: LightGoldenRodYellow; margin: 4px; border: 1px solid khaki\"> ()</span></p><p><b>subject</b>: <a href=\"#Patient_1\">See above (Patient/1: ABC)</a></p><p><b>authoredOn</b>: 2020-07-09</p><p><b>requester</b>: <a href=\"#Practitioner_1\">See above (Practitioner/1: Dr. DEF)</a></p><p><b>reasonCode</b>: Ross river fever <span style=\"background: LightGoldenRodYellow; margin: 4px; border: 1px solid khaki\"> (<a href=\"https://browser.ihtsdotools.org/\">SNOMED CT</a>#602001)</span></p><p><b>reasonReference</b>: <a href=\"#Condition_1\">See above (Condition/1)</a></p><h3>DosageInstructions</h3><table class=\"grid\"><tr><td>-</td><td><b>Text</b></td></tr><tr><td>*</td><td>Take two tablets orally with or after meal once a day</td></tr></table></div>"
                },
                "status": "active",
                "intent": "order",
                "medicationCodeableConcept": {
                    "text": "Paracetemol 500mg Oral Tab"
                },
                "subject": {
                    "reference": "Patient/1",
                    "display": "ABC"
                },
                "authoredOn": "2020-07-09",
                "requester": {
                    "reference": "Practitioner/1",
                    "display": "Dr. DEF"
                },
                "reasonCode": [
                    {
                        "coding": [
                            {
                                "system": "http://snomed.info/sct",
                                "code": "602001",
                                "display": "Ross river fever"
                            }
                        ]
                    }
                ],
                "reasonReference": [
                    {
                        "reference": "Condition/1"
                    }
                ],
                "dosageInstruction": [
                    {
                        "text": "Take two tablets orally with or after meal once a day"
                    }
                ]
            }
        },
        {
            "fullUrl": "Condition/1",
            "resource": {
                "resourceType": "Condition",
                "id": "1",
                "meta": {
                    "profile": [
                        "https://nrces.in/ndhm/fhir/r4/StructureDefinition/Condition"
                    ]
                },
                "text": {
                    "status": "generated",
                    "div": "<div xmlns=\"http://www.w3.org/1999/xhtml\" xml:lang=\"en-IN\" lang=\"en-IN\">Abdominal pain on 09-July 2020</div>"
                },
                "code": {
                    "coding": [
                        {
                            "system": "http://snomed.info/sct",
                            "code": "21522001",
                            "display": "Abdominal pain"
                        }
                    ],
                    "text": "Abdominal pain"
                },
                "subject": {
                    "reference": "Patient/1"
                }
            }
        },
        {
            "fullUrl": "Binary/1",
            "resource": {
                "resourceType": "Binary",
                "id": "1",
                "meta": {
                    "profile": [
                        "https://nrces.in/ndhm/fhir/r4/StructureDefinition/Binary"
                    ]
                },
                "contentType": "application/pdf",
                "data": "DUMMY"
            }
        },
        {
            "fullUrl": "Binary/2",
            "resource": {
                "resourceType": "Binary",
                "id": "2",
                "meta": {
                    "profile": [
                        "https://nrces.in/ndhm/fhir/r4/StructureDefinition/Binary"
                    ]
                },
                "contentType": "image/jpeg",
                "data": "DUMMY"
            }
        }
    ],
    "signature": {
        "type": [
            {
                "system": "urn:iso-astm:E1762-95:2013",
                "code": "1.2.840.10065.1.12.1.1",
                "display": "Author's Signature"
            }
        ],
        "when": "2020-07-09T07:42:33+10:00",
        "who": {
            "reference": "Practitioner/1"
        },
        "sigFormat": "image/jpeg",
        "data": "DUMMY"
    }
}